Time (s)	RV (P0)	RV (P1)	RV (P2)	RV (P3)	RV (P4)	RV (P5)	RV (P6)	density (kg/m^3)	PstatRef (Pa)	PtotRef (Pa)
										
										
										
0.01	11.5763	12.4544	12.6688	16.1379	14.1367	14.3342	15.2263	1.1896	0	0
0.02	11.5518	12.5763	12.4213	15.7444	13.5078	13.8385	14.5059	1.1896	0	0
0.03	12.5272	12.8977	13.0387	15.8445	13.3591	13.4430	13.9554	1.1896	0	0
0.04	10.4982	12.2351	10.9710	14.0782	11.8371	12.7230	13.0946	1.1896	0	0
0.05	10.7200	12.3638	11.4490	15.0578	12.9236	13.8310	14.4744	1.1896	0	0
0.06	10.6136	12.2339	12.0820	15.6995	13.9633	14.1745	15.2938	1.1896	0	0
0.07	10.5368	11.8793	12.1448	14.8532	13.4513	12.4691	13.7918	1.1896	0	0
0.08	13.5206	13.3647	14.4005	17.5492	15.1079	14.8974	15.5844	1.1896	0	0
0.09	11.5440	13.3751	12.0031	14.6532	12.6168	12.5133	13.2110	1.1896	0	0
0.10	11.5371	12.3635	12.5899	15.2733	13.4728	13.1970	14.2216	1.1896	0	0
0.11	10.7599	13.0395	11.4123	14.0312	11.7901	12.0297	12.3397	1.1896	0	0
0.12	11.0118	12.3042	11.5657	14.7178	12.5350	13.0579	13.5914	1.1896	0	0
0.13	11.5082	12.5457	11.2366	15.1579	11.9236	14.0543	13.7158	1.1896	0	0
0.14	11.0247	13.2977	10.8496	14.9843	11.7497	13.9992	13.6932	1.1896	0	0
0.15	10.6597	12.2287	11.1642	14.6868	12.2681	13.4164	13.7954	1.1896	0	0
0.16	11.3339	12.9724	11.2778	15.2537	12.1218	14.2818	14.0547	1.1896	0	0
0.17	10.5297	13.0364	9.7111	13.0708	9.8071	12.0897	11.5087	1.1896	0	0
0.18	8.2651	11.4718	8.8263	9.9342	8.6774	7.5198	8.4000	1.1896	0	0
0.19	8.9977	10.5493	9.6283	10.2223	9.1282	6.7619	7.7417	1.1896	0	0
0.20	10.7844	9.6435	11.8845	13.4161	12.2126	10.4270	11.7111	1.1896	0	0
0.21	10.3500	10.5676	10.8508	13.5102	11.5832	11.8143	12.4216	1.1896	0	0
0.22	10.9130	11.6184	11.5460	14.4411	12.3533	12.2557	12.9445	1.1896	0	0
0.23	9.7350	11.1475	10.9992	14.3137	12.8929	12.5881	13.8910	1.1896	0	0
0.24	9.6243	9.9484	10.8904	11.3426	10.5001	7.6645	9.0953	1.1896	0	0
0.25	11.2002	10.8511	10.2018	13.5466	9.8885	12.1633	11.1568	1.1896	0	0
0.26	10.9318	11.3878	11.6411	15.1400	12.9330	13.9931	14.4297	1.1896	0	0
0.27	11.2447	12.1314	11.4598	15.4008	12.6570	14.1662	14.3645	1.1896	0	0
0.28	11.4617	12.6332	12.2625	14.9340	12.9878	12.6183	13.4557	1.1896	0	0
0.29	10.6382	13.3436	9.0483	14.1954	9.6795	14.1302	13.0388	1.1896	0	0
0.30	10.7606	12.9369	10.7918	14.5254	11.6596	13.4352	13.3791	1.1896	0	0
0.31	9.6760	12.8818	9.8847	14.2010	11.2926	13.6194	13.5441	1.1896	0	0
0.32	7.7252	11.3398	8.5579	10.3901	9.1520	8.2700	9.1837	1.1896	0	0
0.33	12.2266	10.5275	12.6059	12.8327	11.1491	8.2549	9.0600	1.1896	0	0
0.34	8.4182	10.2905	9.5214	12.2905	11.1845	11.1776	12.3051	1.1896	0	0
0.35	10.9292	11.4247	9.6042	15.0876	10.6533	15.1629	14.0560	1.1896	0	0
0.36	10.4308	11.7652	10.4337	14.5440	11.5191	13.5969	13.5585	1.1896	0	0
0.37	9.6886	10.7895	10.0158	10.8412	9.3950	7.6250	7.8510	1.1896	0	0
0.38	10.7122	10.2632	10.6682	13.1996	10.8938	11.8294	11.6678	1.1896	0	0
0.39	10.5145	11.4236	11.5474	14.0160	11.9731	11.4864	12.0954	1.1896	0	0
0.40	9.4696	11.7766	8.9599	12.9063	9.7008	12.5131	11.9583	1.1896	0	0
0.41	10.5892	12.5272	10.5259	14.5925	11.7811	13.7724	13.8494	1.1896	0	0
0.42	10.4080	12.7222	11.1896	14.6721	12.5947	13.0160	13.7143	1.1896	0	0
0.43	11.4283	12.0885	12.0592	13.6324	11.6562	10.7481	10.9912	1.1896	0	0
0.44	10.6063	11.5268	10.5176	12.8040	10.3004	11.0984	10.8573	1.1896	0	0
0.45	10.0924	10.7402	10.7662	12.8060	11.1960	10.7060	11.4015	1.1896	0	0
0.46	11.2857	11.3987	11.7412	14.9259	12.6385	13.0860	13.4911	1.1896	0	0
0.47	10.8001	11.6344	11.6698	14.7560	12.6908	12.9976	13.6792	1.1896	0	0
0.48	11.3704	11.5720	12.5039	15.7776	13.7643	13.6979	14.5905	1.1896	0	0
0.49	10.9323	12.1842	11.7865	14.1511	12.2936	12.0103	12.6499	1.1896	0	0
0.50	11.8762	12.0059	13.1082	15.1860	13.7466	12.0702	13.4898	1.1896	0	0
0.51	10.7050	12.0180	10.0526	13.2162	10.2359	12.1471	11.8246	1.1896	0	0
0.52	11.7521	12.5914	11.7110	15.1472	12.3812	13.6452	13.5346	1.1896	0	0
0.53	10.8405	12.2371	11.0931	14.4431	11.9961	12.9722	13.2185	1.1896	0	0
0.54	10.1556	12.4056	11.3583	14.4059	12.6245	12.6500	13.5151	1.1896	0	0
0.55	10.9373	12.5068	11.7340	15.1345	12.9404	13.4118	14.1593	1.1896	0	0
0.56	11.1976	12.3685	11.9603	15.2280	13.1300	13.3766	14.1329	1.1896	0	0
0.57	9.6271	12.3532	9.9051	12.9568	10.4216	11.8721	11.9304	1.1896	0	0
0.58	9.8353	11.2446	9.5981	11.4844	8.7362	10.0655	9.5420	1.1896	0	0
0.59	12.1206	11.3066	11.2596	14.2829	10.8580	12.6772	11.8360	1.1896	0	0
0.60	10.1710	11.2388	11.0148	13.5133	11.6433	11.3794	12.0427	1.1896	0	0
0.61	12.4400	11.7363	11.9825	15.6855	11.9337	14.4463	13.5743	1.1896	0	0
0.62	10.4824	12.0556	9.8937	12.6436	9.9531	11.2984	11.2152	1.1896	0	0
0.63	9.7270	11.4081	10.1769	13.3619	11.0384	11.9788	12.2578	1.1896	0	0
0.64	12.1996	11.8077	12.9541	15.1371	13.4360	12.2403	13.0880	1.1896	0	0
0.65	11.5094	12.2477	12.6990	14.9250	13.2774	11.9267	13.1308	1.1896	0	0
0.66	11.2172	11.7176	12.3583	13.7990	12.4523	10.6082	11.8074	1.1896	0	0
0.67	11.8647	12.9210	11.8259	15.7441	12.7802	14.6647	14.4741	1.1896	0	0
0.68	10.1479	12.4955	10.4781	13.2791	11.1126	11.3819	11.9627	1.1896	0	0
0.69	12.3299	13.0256	11.3251	15.4982	11.2813	14.3740	13.1302	1.1896	0	0
0.70	11.2343	13.3679	11.4775	15.7647	12.7720	14.7853	14.8325	1.1896	0	0
0.71	13.6194	13.7816	12.5914	15.9835	11.6873	13.9635	13.0266	1.1896	0	0
0.72	11.7425	13.8730	11.9921	15.8050	12.9630	14.4196	14.3624	1.1896	0	0
0.73	11.3026	13.1582	12.0943	15.5293	13.4382	13.8232	14.5433	1.1896	0	0
0.74	10.7786	12.3130	11.7397	14.6778	12.8488	12.6974	13.5974	1.1896	0	0
0.75	10.0675	12.7351	11.4451	14.0854	12.6258	11.9810	13.2118	1.1896	0	0
0.76	12.2052	12.5804	12.2811	15.4787	12.7960	13.5417	13.7660	1.1896	0	0
0.77	10.9474	12.6410	10.6915	14.5742	11.8240	13.7244	13.7730	1.1896	0	0
0.78	10.3660	12.4710	11.4802	14.3657	12.5693	12.3414	13.2638	1.1896	0	0
0.79	11.0650	12.3426	11.5789	15.1522	12.9007	13.6770	14.2624	1.1896	0	0
0.80	10.5938	12.8248	11.1031	14.0658	11.7430	12.5109	12.7576	1.1896	0	0
0.81	11.2300	12.3647	12.2527	15.6275	13.5592	13.8712	14.6846	1.1896	0	0
0.82	11.5552	11.9497	12.6398	16.2221	14.1391	14.4724	15.3597	1.1896	0	0
0.83	12.2428	13.1986	13.1219	15.5763	13.3946	12.5287	13.4213	1.1896	0	0
0.84	11.7397	12.4208	12.3678	15.1557	13.1482	13.1566	13.8004	1.1896	0	0
0.85	11.6668	12.3979	12.0314	14.6288	12.3354	12.4968	12.9154	1.1896	0	0
0.86	10.8485	12.4647	11.2961	14.3171	11.9099	12.6041	12.9098	1.1896	0	0
0.87	10.7956	12.4022	11.7293	14.6174	12.8852	12.8417	13.7331	1.1896	0	0
0.88	11.0351	12.7510	12.5629	15.3290	13.8494	12.9720	14.4288	1.1896	0	0
0.89	11.5643	12.4498	12.8936	15.8135	14.2602	13.2877	14.8361	1.1896	0	0
0.90	12.2410	12.8174	13.1620	16.2361	13.9087	14.1054	14.6754	1.1896	0	0
0.91	13.7818	13.6504	12.8112	15.9945	11.9582	13.5965	12.6849	1.1896	0	0
0.92	11.0158	13.0364	11.2381	13.8411	11.4050	12.0243	11.9643	1.1896	0	0
0.93	11.5779	13.1717	12.1260	15.7651	13.2933	14.3129	14.6532	1.1896	0	0
0.94	10.1183	11.9301	10.4680	13.3336	11.2510	11.7375	12.2611	1.1896	0	0
0.95	10.7226	12.3906	10.5417	13.2296	10.2642	11.8257	11.3653	1.1896	0	0
0.96	10.7662	11.6208	10.8761	13.9553	11.5726	12.6663	12.8544	1.1896	0	0
0.97	11.4908	12.2361	12.0958	15.4024	13.1162	13.5152	14.0086	1.1896	0	0
0.98	11.6254	12.9556	12.6017	15.6837	13.7052	13.5273	14.2937	1.1896	0	0
0.99	12.0439	12.4322	12.4201	15.5830	13.0725	13.7742	14.0012	1.1896	0	0
1.00	11.4517	13.1068	12.3298	15.2369	13.1247	13.1425	13.8119	1.1896	0	0
1.01	10.8266	12.9900	11.0177	13.5761	11.1948	11.7377	11.8923	1.1896	0	0
1.02	11.4706	12.3731	12.2602	15.2957	13.1542	13.3724	13.9455	1.1896	0	0
1.03	10.9555	12.4657	11.8539	14.5548	12.7392	12.5257	13.3162	1.1896	0	0
1.04	10.7167	12.2974	11.8496	15.2186	13.2094	13.5118	14.2060	1.1896	0	0
1.05	10.4568	12.5681	11.3394	14.9541	12.9596	13.7617	14.5286	1.1896	0	0
1.06	12.1231	13.2782	12.1586	16.3303	13.1583	15.1101	14.9967	1.1896	0	0
1.07	11.8148	13.4157	12.5499	16.3012	14.0826	14.6499	15.3639	1.1896	0	0
1.08	12.8933	14.0092	12.2430	15.6459	12.1522	13.8813	13.3275	1.1896	0	0
1.09	12.0090	13.8929	12.4638	16.0825	13.4002	14.1264	14.5309	1.1896	0	0
1.10	11.4680	13.2874	11.9667	15.0311	12.6306	13.3364	13.5433	1.1896	0	0
1.11	10.9648	13.3342	11.5696	14.8764	12.6416	13.2764	13.8954	1.1896	0	0
1.12	10.2944	12.0332	11.5892	14.4498	12.7808	12.4007	13.5467	1.1896	0	0
1.13	11.7564	12.7277	11.5817	15.0863	11.4871	13.5579	12.7746	1.1896	0	0
1.14	11.0284	12.4035	11.7607	15.3378	12.9639	13.9167	14.3528	1.1896	0	0
1.15	11.2317	12.8090	10.4122	13.9334	9.7631	12.7692	11.2080	1.1896	0	0
1.16	11.5192	13.0162	11.2329	14.9185	11.6704	13.5292	13.0928	1.1896	0	0
1.17	11.8189	12.2275	11.7455	14.2905	11.5245	12.2077	11.8800	1.1896	0	0
1.18	12.5715	12.8489	13.1458	15.4871	13.1309	12.5583	13.0526	1.1896	0	0
1.19	8.7416	12.2250	7.9783	10.8761	7.6905	10.0914	9.0081	1.1896	0	0
1.20	9.9027	11.7499	10.2575	13.2131	11.3610	11.8489	12.5099	1.1896	0	0
1.21	11.1879	12.5474	11.1345	14.3422	11.6188	12.7240	12.6840	1.1896	0	0
1.22	12.3516	13.0522	12.9760	16.1059	13.7097	14.0319	14.6193	1.1896	0	0
1.23	11.5726	13.3679	11.8506	15.1434	12.5813	13.3506	13.6415	1.1896	0	0
1.24	11.5168	13.1916	12.2259	15.4044	13.0211	13.3592	13.8259	1.1896	0	0
1.25	11.5116	12.6659	12.3968	15.6633	13.6354	13.7511	14.5210	1.1896	0	0
1.26	11.7074	12.9398	12.5888	15.9600	13.9140	14.0241	14.9057	1.1896	0	0
1.27	11.1797	12.6309	11.4227	14.2898	11.7489	12.3241	12.5288	1.1896	0	0
1.28	11.5457	12.5991	11.1026	14.5509	11.2830	13.3558	12.6941	1.1896	0	0
1.29	12.0913	12.9037	12.5554	16.1466	13.4729	14.5043	14.8096	1.1896	0	0
1.30	10.8439	12.6494	11.3405	14.7049	12.2018	13.3721	13.5333	1.1896	0	0
1.31	10.9522	12.6881	12.2001	15.5848	13.7949	14.0306	14.9781	1.1896	0	0
1.32	11.6225	12.6254	12.2165	16.9313	14.0265	15.7160	16.2723	1.1896	0	0
1.33	12.1130	13.4979	11.2011	14.8541	11.1530	13.4761	12.9065	1.1896	0	0
1.34	11.4405	13.5290	11.7211	15.2861	12.7117	13.9369	14.2896	1.1896	0	0
1.35	12.0843	12.8570	12.6609	14.9738	12.9169	12.3156	13.1264	1.1896	0	0
1.36	11.8155	13.1513	11.8027	15.0760	12.1119	13.4157	13.1341	1.1896	0	0
1.37	11.2061	13.0686	10.6345	14.2856	10.8792	13.0203	12.5893	1.1896	0	0
1.38	10.2185	12.0474	10.4312	14.1439	11.7487	13.4333	13.6672	1.1896	0	0
1.39	9.9807	12.6292	8.7810	12.8969	8.5392	12.0831	10.3439	1.1896	0	0
1.40	11.6525	12.1299	10.8119	14.2954	10.6941	12.8931	12.0275	1.1896	0	0
1.41	11.8957	12.8561	12.1712	14.7541	12.5655	12.4698	13.0452	1.1896	0	0
1.42	11.7134	13.0840	12.5767	15.4662	13.2568	13.1059	13.8175	1.1896	0	0
1.43	10.7508	12.0758	11.7198	14.3442	12.6277	12.4691	13.4117	1.1896	0	0
1.44	12.8018	12.3633	13.8589	15.7866	13.9694	12.3350	13.3767	1.1896	0	0
1.45	12.0774	12.7383	10.3412	14.0334	9.2384	13.1054	11.1262	1.1896	0	0
1.46	10.0236	11.6981	10.0080	13.3640	10.9033	12.8931	12.8188	1.1896	0	0
1.47	11.7866	12.9385	11.6749	15.3974	12.2081	13.7830	13.5722	1.1896	0	0
1.48	11.8592	12.9888	11.7694	15.7267	12.6724	14.5021	14.3120	1.1896	0	0
1.49	10.0410	12.4246	10.3714	13.5726	10.9580	12.2335	12.2419	1.1896	0	0
1.50	9.7829	12.0487	10.2220	13.3694	11.0070	11.9814	12.2207	1.1896	0	0
1.51	10.4366	12.3268	11.6416	15.4982	13.7339	14.3068	15.4292	1.1896	0	0
1.52	14.0166	13.1780	14.2649	17.3785	14.3918	15.0157	15.0530	1.1896	0	0
1.53	11.9916	13.3498	12.3905	15.0456	12.7148	12.8620	13.3051	1.1896	0	0
1.54	11.6485	13.1458	12.1888	14.9691	12.7800	13.0232	13.5345	1.1896	0	0
1.55	10.5017	12.5198	11.4127	14.1865	12.2842	12.4686	13.2155	1.1896	0	0
1.56	11.0069	13.0393	11.5292	15.7327	13.0295	14.8436	15.1063	1.1896	0	0
1.57	11.6104	13.4114	11.3902	15.4563	12.1868	14.3448	14.0042	1.1896	0	0
1.58	11.0490	12.3301	11.4819	15.2282	12.6045	13.9761	14.1183	1.1896	0	0
1.59	10.1744	12.6833	10.5241	14.2927	11.7433	13.1650	13.4846	1.1896	0	0
1.60	10.5373	12.2345	12.1045	15.0488	13.4713	13.1634	14.4256	1.1896	0	0
1.61	11.8912	11.2928	13.2254	14.9031	13.6743	11.6841	13.1410	1.1896	0	0
1.62	11.7152	11.9820	12.9569	15.4814	13.7494	12.6446	13.8182	1.1896	0	0
1.63	12.0676	12.1380	13.4059	16.9009	14.9281	14.6939	15.7866	1.1896	0	0
1.64	12.3046	12.8311	12.8141	15.5213	13.0882	13.0122	13.4731	1.1896	0	0
1.65	9.6817	11.9192	9.8918	11.7359	9.7898	9.7841	10.0337	1.1896	0	0
1.66	10.0260	10.9226	10.4724	12.3264	10.4027	9.9922	10.1864	1.1896	0	0
1.67	10.0961	11.0241	10.1393	12.6103	10.3079	11.2626	11.2325	1.1896	0	0
1.68	11.6004	11.6080	10.9938	14.4840	11.1568	13.1220	12.5964	1.1896	0	0
1.69	11.1821	12.1858	11.6157	14.9836	12.6750	13.5012	13.9672	1.1896	0	0
1.70	11.2146	12.5540	11.7376	15.4551	12.9572	13.9851	14.2881	1.1896	0	0
1.71	11.7439	12.6422	11.3584	14.0023	11.0559	11.8785	11.6483	1.1896	0	0
1.72	11.1773	12.9619	12.1193	15.0004	13.0041	13.1377	13.8050	1.1896	0	0
1.73	12.6240	12.9424	14.1028	16.2014	14.6678	12.5144	14.0844	1.1896	0	0
1.74	11.3589	12.6830	12.5614	14.8167	13.1460	12.6229	13.6070	1.1896	0	0
1.75	11.3434	12.2741	12.1825	15.1342	12.9952	13.1841	13.8287	1.1896	0	0
1.76	10.1271	12.1154	11.2664	14.3916	12.7055	12.7632	13.7618	1.1896	0	0
1.77	12.0641	12.9222	11.8917	15.6101	12.4247	13.9924	13.7298	1.1896	0	0
1.78	11.4513	12.2972	12.1610	15.6403	13.6398	14.1370	14.9557	1.1896	0	0
1.79	11.1310	12.5984	11.0894	14.8921	11.8237	13.7419	13.5111	1.1896	0	0
1.80	12.7844	13.3001	13.4233	16.9578	14.4569	14.8644	15.3639	1.1896	0	0
1.81	11.9689	13.1381	12.3393	15.8633	13.2827	13.8142	14.4592	1.1896	0	0
1.82	11.2890	12.9879	11.7788	15.0264	12.7042	13.2861	13.7846	1.1896	0	0
1.83	11.6459	12.7064	12.5238	16.0419	13.7944	14.2203	14.9030	1.1896	0	0
1.84	12.1644	12.9989	13.1979	16.0763	13.9962	13.6254	14.3708	1.1896	0	0
1.85	10.6208	13.3294	11.7687	14.9248	13.1569	13.0240	14.1827	1.1896	0	0
1.86	12.1856	12.4792	13.5819	15.7448	14.0158	12.4000	13.5735	1.1896	0	0
1.87	10.0295	12.5828	9.0323	12.6521	9.3401	12.0513	11.2320	1.1896	0	0
1.88	9.9026	11.9799	10.4148	13.9592	11.9003	12.7833	13.3775	1.1896	0	0
1.89	11.4558	11.4746	12.5224	14.9922	13.4616	12.7740	13.8864	1.1896	0	0
1.90	9.4219	11.6741	10.9113	13.5278	12.4950	11.2551	13.1737	1.1896	0	0
1.91	11.3873	11.8003	12.1304	14.6936	12.8458	12.4717	13.4258	1.1896	0	0
1.92	11.8883	11.9650	11.9688	13.9205	11.6566	11.5761	11.6818	1.1896	0	0
1.93	10.4717	12.1390	10.4117	13.1626	10.6749	11.6647	11.6162	1.1896	0	0
1.94	10.8667	11.8361	11.4787	14.8346	12.6095	13.2721	13.7702	1.1896	0	0
1.95	10.8322	12.3847	12.3661	15.3481	13.7522	13.1930	14.5205	1.1896	0	0
1.96	11.1213	11.7868	12.1325	15.4331	13.3820	14.2456	14.6882	1.1896	0	0
1.97	11.4963	12.4006	12.1598	15.7569	13.2958	14.2969	14.6805	1.1896	0	0
1.98	12.3215	13.2650	12.2963	15.7206	12.6527	13.9575	13.7855	1.1896	0	0
1.99	11.8289	12.9806	11.7982	15.1472	12.0754	13.7341	13.1626	1.1896	0	0
2.00	11.7052	13.4047	12.0679	14.7584	12.4734	12.6500	13.0933	1.1896	0	0
2.01	12.3198	12.7943	12.7499	15.6115	13.3504	13.4622	13.9311	1.1896	0	0
2.02	11.8921	12.5674	12.5982	15.0996	12.9654	12.6230	13.2422	1.1896	0	0
2.03	10.7994	12.8933	11.8486	14.3608	12.6039	12.0592	12.9774	1.1896	0	0
2.04	10.5694	11.9491	11.4580	14.7165	12.8541	13.0731	13.9268	1.1896	0	0
2.05	8.5708	11.4938	8.7392	11.5840	9.3833	10.7776	10.8043	1.1896	0	0
2.06	9.4514	11.3587	9.2172	12.6935	9.3002	12.0745	11.0664	1.1896	0	0
2.07	10.7495	11.0070	10.9004	14.0030	11.8376	12.9325	13.1934	1.1896	0	0
2.08	11.5540	12.0287	11.5960	15.1964	11.9865	13.9958	13.5774	1.1896	0	0
2.09	10.9808	12.2698	10.9480	14.2414	11.4608	12.8713	12.7167	1.1896	0	0
2.10	12.7765	12.5463	12.7593	15.6244	12.8980	13.2899	13.0989	1.1896	0	0
2.11	11.6833	12.4282	12.6385	14.3422	12.8090	11.2447	12.6372	1.1896	0	0
2.12	11.0798	12.2751	12.2312	14.8510	13.1724	12.7288	13.7240	1.1896	0	0
2.13	11.4567	12.7607	12.4558	15.5535	13.4837	13.4506	14.3660	1.1896	0	0
2.14	11.4364	11.9931	10.7856	13.1148	10.2130	11.2168	10.9080	1.1896	0	0
2.15	11.0876	11.8667	11.4864	14.8946	12.4434	13.6707	13.9280	1.1896	0	0
2.16	12.3313	12.5674	13.1581	16.9483	14.7642	15.2301	16.0184	1.1896	0	0
2.17	11.7633	12.0636	13.4047	15.7373	14.3503	12.9032	14.4475	1.1896	0	0
2.18	12.1373	12.4578	12.3356	14.8183	12.3257	12.2716	12.2909	1.1896	0	0
2.19	10.9474	11.7827	11.2425	14.7413	12.1676	13.4766	13.6864	1.1896	0	0
2.20	11.1590	12.5433	11.9738	15.0532	13.0720	13.2790	14.0638	1.1896	0	0
2.21	11.6766	12.8106	12.8488	15.3975	13.5876	12.8386	13.9356	1.1896	0	0
2.22	12.3039	12.4647	13.0271	15.8173	13.7402	13.5159	14.4525	1.1896	0	0
2.23	10.8947	13.4861	10.8702	13.6596	11.3949	11.9697	12.3380	1.1896	0	0
2.24	9.1059	11.5198	8.6447	10.5161	8.0702	8.8830	8.4751	1.1896	0	0
2.25	9.8595	10.6946	9.5475	10.9164	8.5364	9.0013	8.3843	1.1896	0	0
2.26	10.4537	10.8008	9.8242	14.0187	10.2432	13.4785	12.3721	1.1896	0	0
2.27	11.3930	11.6404	11.6520	14.6914	12.2990	13.1246	13.5253	1.1896	0	0
2.28	11.5999	12.2325	12.2753	15.0474	12.9846	13.1860	13.8190	1.1896	0	0
2.29	10.8839	12.3008	10.4059	13.9355	10.7681	12.7592	12.3365	1.1896	0	0
2.30	11.6334	12.1498	12.1765	15.4906	13.2752	14.1174	14.6268	1.1896	0	0
2.31	10.7938	11.9010	11.6073	14.3308	12.4990	12.3863	13.2559	1.1896	0	0
2.32	11.8916	12.0948	12.6160	14.9603	12.8391	12.4164	12.9602	1.1896	0	0
2.33	11.6533	12.0749	12.4568	15.1509	13.1918	13.3796	13.9218	1.1896	0	0
2.34	10.5447	11.5200	11.1176	13.2564	11.3224	11.0752	11.7294	1.1896	0	0
2.35	10.3478	11.9909	11.2763	13.6453	12.0456	11.5856	12.4761	1.1896	0	0
2.36	11.7766	12.4547	12.8316	15.9059	13.7647	13.8540	14.6645	1.1896	0	0
2.37	9.5180	12.1926	8.7656	12.2645	9.0737	10.8549	10.2954	1.1896	0	0
2.38	10.4186	12.0592	11.1714	13.7363	12.1130	11.9127	12.8486	1.1896	0	0
2.39	10.3686	11.8361	11.7579	14.7042	13.2241	12.7528	14.0327	1.1896	0	0
2.40	12.2488	12.3681	12.7950	15.5678	13.2579	13.3511	14.0059	1.1896	0	0
2.41	11.3927	13.1191	11.2049	15.4626	12.1080	14.6733	14.3223	1.1896	0	0
2.42	11.2734	12.6309	10.8326	14.8167	11.3855	13.9633	13.0634	1.1896	0	0
2.43	10.6744	12.6727	11.2374	14.5827	12.1668	13.3181	13.5887	1.1896	0	0
2.44	11.2451	12.6736	10.7839	13.6954	10.6852	12.1644	11.8151	1.1896	0	0
2.45	12.4832	12.6383	12.2276	15.5369	12.4340	13.8784	13.6087	1.1896	0	0
2.46	11.5190	12.8494	11.9842	15.1154	12.8330	13.4359	13.7966	1.1896	0	0
2.47	10.6950	12.1143	10.8082	13.7246	11.4132	12.5664	12.8366	1.1896	0	0
2.48	10.3574	12.3710	10.8565	13.8428	11.7363	12.3802	12.8960	1.1896	0	0
2.49	8.5962	11.6585	8.8751	11.8556	9.4557	10.8847	10.9204	1.1896	0	0
2.50	9.2550	10.6053	9.7410	11.4524	9.9773	9.7707	10.2955	1.1896	0	0
2.51	10.9106	11.3056	11.7263	15.0817	12.8946	13.7881	14.2797	1.1896	0	0
2.52	12.2406	12.1140	12.7511	15.4814	12.9643	12.6446	12.9658	1.1896	0	0
2.53	11.8645	11.8936	13.3125	16.4342	14.4720	14.2797	15.1453	1.1896	0	0
2.54	11.6488	12.8261	11.7856	13.7701	11.4901	11.6324	11.9643	1.1896	0	0
2.55	11.6192	12.5751	12.3174	15.6273	13.4647	13.9246	14.6197	1.1896	0	0
2.56	12.3423	13.3489	13.1130	16.1914	13.7043	13.7012	14.2236	1.1896	0	0
2.57	11.8688	13.3700	11.7866	15.3874	12.5456	14.0953	14.1821	1.1896	0	0
2.58	11.1673	13.0924	11.1190	14.8991	11.9058	13.8270	13.6426	1.1896	0	0
2.59	11.1848	12.8929	11.2240	14.4885	11.7512	13.2671	13.1417	1.1896	0	0
2.60	11.1124	12.0090	11.9031	14.6791	12.6221	12.5162	13.1620	1.1896	0	0
2.61	11.2122	13.5878	9.6520	14.0467	9.5460	13.3759	11.8354	1.1896	0	0
2.62	11.4150	12.4852	12.0230	15.0551	12.8863	13.3898	13.8496	1.1896	0	0
2.63	11.1177	11.8431	12.1236	14.6852	12.9378	12.6857	13.5346	1.1896	0	0
2.64	12.3618	12.9424	12.6466	15.5244	12.9822	13.0605	13.2595	1.1896	0	0
2.65	11.7573	12.4700	11.9769	15.7155	13.1737	14.3045	14.6274	1.1896	0	0
2.66	11.3478	12.5350	11.8949	14.5681	12.3336	12.5645	12.9804	1.1896	0	0
2.67	10.2075	12.5376	11.2131	13.9880	12.2726	12.0353	13.0137	1.1896	0	0
2.68	11.5739	12.6381	12.0747	15.7508	13.2476	14.3274	14.6418	1.1896	0	0
2.69	11.6123	12.3645	12.8447	16.2495	14.2876	14.1610	15.1890	1.1896	0	0
2.70	10.4260	12.4441	9.9971	12.3042	9.2658	10.6156	9.9842	1.1896	0	0
2.71	12.8953	12.5357	12.8387	14.6965	12.0819	11.9612	11.9519	1.1896	0	0
2.72	10.5130	12.0510	10.3736	11.7167	9.1061	8.6539	8.0846	1.1896	0	0
2.73	8.8358	10.8945	7.9878	10.0436	6.8709	8.7333	7.5349	1.1896	0	0
2.74	10.0446	11.3092	8.6792	11.8033	8.2693	11.4336	10.1134	1.1896	0	0
2.75	11.3691	11.1866	10.7232	14.2511	10.8946	13.1609	12.4639	1.1896	0	0
2.76	10.6224	11.5919	10.5195	13.7921	11.0454	12.6591	12.4055	1.1896	0	0
2.77	10.1269	11.3094	11.0022	13.6965	11.9495	12.0441	12.8162	1.1896	0	0
2.78	9.3687	10.8876	9.7038	12.0341	9.8566	10.3200	10.4448	1.1896	0	0
2.79	10.3717	11.7832	10.0022	14.0486	11.2493	13.5536	13.4279	1.1896	0	0
2.80	12.7572	12.3532	13.5274	16.4879	14.3167	14.0537	14.9662	1.1896	0	0
2.81	11.3691	12.3527	12.3504	14.9657	13.1138	12.7321	13.6115	1.1896	0	0
2.82	11.3400	12.9664	12.3217	15.4065	13.2038	13.7978	14.2087	1.1896	0	0
2.83	10.2671	11.9125	10.9940	14.2535	12.4636	12.8926	13.7010	1.1896	0	0
2.84	10.8663	11.5611	10.2343	12.8067	9.9024	11.5665	10.8935	1.1896	0	0
2.85	11.1948	12.2236	11.7533	14.5655	12.4545	12.5272	13.2294	1.1896	0	0
2.86	10.9733	11.7000	11.3894	14.6614	12.3500	13.3812	13.7019	1.1896	0	0
2.87	11.1668	12.4436	12.3617	15.4863	13.7801	13.2597	14.4749	1.1896	0	0
2.88	11.4971	12.6277	12.2300	15.6139	13.3904	13.6942	14.3843	1.1896	0	0
2.89	12.0142	12.6648	12.4744	15.7303	13.4302	14.0583	14.4864	1.1896	0	0
2.90	10.7324	13.1484	11.3629	14.5161	12.4924	12.6901	13.3662	1.1896	0	0
2.91	11.5538	12.5734	12.4435	15.1828	13.1095	12.9955	13.4866	1.1896	0	0
2.92	10.5840	12.7385	11.3511	14.1964	12.2976	12.6519	13.2393	1.1896	0	0
2.93	11.7143	12.9287	12.2227	15.3891	12.8261	13.3393	13.8031	1.1896	0	0
2.94	12.8254	13.1227	12.3557	15.1494	12.2009	13.0753	13.1072	1.1896	0	0
2.95	11.0473	12.2904	11.2082	13.8678	11.1372	12.0830	11.9204	1.1896	0	0
2.96	8.5356	11.5532	8.3188	11.8696	9.0204	11.1910	10.7836	1.1896	0	0
2.97	11.5737	12.1340	10.6457	14.2066	10.6238	13.3687	12.4029	1.1896	0	0
2.98	10.6423	11.5539	11.0544	14.2129	12.0658	12.7465	13.1566	1.1896	0	0
2.99	11.1965	12.0523	12.0268	15.0017	13.0156	12.9220	13.6270	1.1896	0	0
3.00	11.4934	12.8270	11.4252	14.8917	11.9251	13.7051	13.4845	1.1896	0	0
3.01	11.9190	12.6782	12.0430	15.5206	12.5627	14.0429	13.9984	1.1896	0	0
3.02	11.9871	13.4491	12.6276	15.5629	13.4484	13.3819	14.0691	1.1896	0	0
3.03	11.4340	12.8044	12.1503	15.3458	13.0507	13.7894	14.2539	1.1896	0	0
3.04	11.8374	13.1787	12.1118	15.6347	13.1071	14.0072	14.3573	1.1896	0	0
3.05	11.8618	13.7796	11.6485	15.4338	12.3594	14.1016	13.9499	1.1896	0	0
3.06	10.9275	12.6844	11.7012	14.7603	12.7230	13.0317	13.6839	1.1896	0	0
3.07	10.5774	12.5510	11.1511	14.3771	12.3483	13.1305	13.6930	1.1896	0	0
3.08	12.8660	13.2537	13.2197	17.3586	14.4925	15.6311	15.9759	1.1896	0	0
3.09	12.7210	12.9263	12.3477	15.7249	12.3865	14.0266	13.6085	1.1896	0	0
3.10	10.6706	12.7126	11.1590	13.3622	11.3945	11.1680	11.7429	1.1896	0	0
3.11	11.2877	12.4112	12.3506	15.0733	13.2318	13.1092	13.8979	1.1896	0	0
3.12	12.0153	12.6455	12.3716	14.9201	12.5619	12.5494	12.9029	1.1896	0	0
3.13	11.7228	12.4866	12.7953	14.9782	13.2029	11.9141	13.1105	1.1896	0	0
3.14	11.6793	12.6910	11.8213	15.0628	12.4537	13.3322	13.4563	1.1896	0	0
3.15	11.3472	12.9943	11.1250	15.0899	11.9489	14.3154	13.9686	1.1896	0	0
3.16	12.3165	13.2309	12.4107	15.6358	12.7931	13.6122	13.8031	1.1896	0	0
3.17	11.4030	13.0593	11.8146	15.2648	12.8330	13.8169	14.1296	1.1896	0	0
3.18	10.9826	12.7085	12.2136	15.4208	13.6679	13.3302	14.5381	1.1896	0	0
3.19	12.1058	13.2032	11.8334	16.1898	12.6772	15.1566	14.7185	1.1896	0	0
3.20	11.7751	13.6249	12.0139	15.9808	13.0014	14.6480	14.6517	1.1896	0	0
3.21	12.1620	13.6448	12.0652	16.0139	12.8354	14.6813	14.5334	1.1896	0	0
3.22	11.9066	13.5205	12.6085	15.6244	13.4292	13.7059	14.3123	1.1896	0	0
3.23	11.7219	13.8152	12.1907	15.9506	13.2737	14.4264	14.7457	1.1896	0	0
3.24	11.8903	13.3042	12.6846	16.0952	13.8575	14.1324	14.8937	1.1896	0	0
3.25	12.0286	13.8943	12.3912	15.1445	12.7508	12.9516	13.3515	1.1896	0	0
3.26	11.3550	13.4169	11.8056	14.9197	12.4478	13.1898	13.5429	1.1896	0	0
3.27	9.9117	12.2744	10.6905	14.6646	12.5558	14.0815	14.6609	1.1896	0	0
3.28	12.8651	13.7768	11.9333	17.0064	12.4364	16.2626	15.0569	1.1896	0	0
3.29	11.8517	13.2489	12.1193	15.1770	12.6908	13.5380	13.7523	1.1896	0	0
3.30	11.9971	12.5289	12.5851	14.8026	12.6114	12.3680	12.9058	1.1896	0	0
3.31	10.3574	12.2107	11.4575	14.4811	12.6894	12.4604	13.4474	1.1896	0	0
3.32	11.8945	12.1647	12.5535	15.9407	13.6390	14.0874	14.6337	1.1896	0	0
3.33	11.7536	12.6523	12.6739	15.7651	13.8001	13.7538	14.6634	1.1896	0	0
3.34	12.0698	12.5580	12.2797	15.7000	13.0024	13.7641	14.0849	1.1896	0	0
3.35	11.6807	13.0260	11.8406	15.6481	12.9876	14.3866	14.7002	1.1896	0	0
3.36	8.2985	12.5950	8.4995	12.0514	9.6648	11.1523	11.2982	1.1896	0	0
3.37	9.7194	11.3186	10.8295	11.5400	10.5730	8.4439	9.8369	1.1896	0	0
3.38	10.4266	11.1751	11.8237	14.2538	13.0768	12.4471	13.8064	1.1896	0	0
3.39	11.0251	11.6520	10.9207	14.6283	11.4044	13.5350	13.0182	1.1896	0	0
3.40	11.7659	13.0979	11.9217	15.1577	12.6615	13.2938	13.6291	1.1896	0	0
3.41	11.9936	13.1073	12.5820	15.9922	13.5780	14.1814	14.7454	1.1896	0	0
3.42	11.3229	12.9393	11.8456	15.5197	12.9676	14.0209	14.3555	1.1896	0	0
3.43	12.0537	13.4789	12.2247	16.0224	13.1390	14.6453	14.7214	1.1896	0	0
3.44	10.6584	12.8722	11.4360	15.3235	13.0728	14.1025	14.7229	1.1896	0	0
3.45	12.6753	13.1638	13.4710	16.2490	13.9697	13.5422	14.1904	1.1896	0	0
3.46	13.3524	14.4525	12.8104	16.9299	13.3006	15.4597	15.1123	1.1896	0	0
3.47	11.0696	13.2522	11.8310	15.1579	13.1059	13.4967	14.2639	1.1896	0	0
3.48	10.4602	12.0768	10.2380	12.0084	9.3817	9.8300	9.5128	1.1896	0	0
3.49	8.6129	10.9010	10.0828	11.1806	10.2709	8.4462	9.7887	1.1896	0	0
3.50	9.3329	9.9974	10.1889	11.9204	10.8161	10.1912	11.2380	1.1896	0	0
3.51	11.4459	11.3777	11.9234	14.9796	12.7963	13.1088	13.6807	1.1896	0	0
3.52	11.6154	11.9515	12.2534	15.5784	13.3435	13.6700	14.3076	1.1896	0	0
3.53	11.4975	12.5537	11.6485	14.8530	12.2148	13.3458	13.3338	1.1896	0	0
3.54	11.3285	12.6405	11.7675	15.1483	12.6714	13.4290	13.8100	1.1896	0	0
3.55	10.6937	12.2607	11.6452	14.7441	12.9577	13.2906	14.0628	1.1896	0	0
3.56	11.7879	12.4148	12.0623	15.6318	13.0600	14.1643	14.3141	1.1896	0	0
3.57	12.0947	13.0357	12.8537	15.8647	13.6868	13.3599	14.2677	1.1896	0	0
3.58	11.1093	13.2013	12.0787	15.6716	13.6725	14.2318	15.1006	1.1896	0	0
3.59	11.8933	12.8556	12.5118	15.7779	13.3669	13.9582	14.2005	1.1896	0	0
3.60	11.7847	12.8400	11.6308	15.4434	12.2467	14.2538	13.9323	1.1896	0	0
3.61	10.7331	13.0138	11.1041	15.0771	12.3447	14.2526	14.2245	1.1896	0	0
3.62	11.6590	12.5316	12.6599	14.1399	12.7105	11.1322	12.3365	1.1896	0	0
3.63	12.2473	12.8633	13.3200	16.4069	14.5273	14.1350	15.3409	1.1896	0	0
3.64	12.0930	13.2946	12.8659	15.1848	13.0235	12.8790	13.4470	1.1896	0	0
3.65	11.6683	12.4167	12.1475	15.2732	12.9191	13.1932	13.8112	1.1896	0	0
3.66	13.0790	13.3446	12.2387	16.4782	12.6027	15.1143	14.3288	1.1896	0	0
3.67	11.8879	13.0061	11.8734	15.7501	12.7859	14.5361	14.4235	1.1896	0	0
3.68	11.5104	12.5919	11.5232	15.1497	12.1972	13.7461	13.5921	1.1896	0	0
3.69	10.6447	13.1309	11.5774	14.5202	12.6471	12.7140	13.4797	1.1896	0	0
3.70	10.5778	12.4982	11.1214	14.9615	12.5368	13.8219	14.2149	1.1896	0	0
3.71	11.2243	13.2285	11.2686	15.8993	12.8008	15.1189	15.1441	1.1896	0	0
3.72	11.6362	13.6751	12.2821	15.1206	13.0367	12.7463	13.7855	1.1896	0	0
3.73	12.7718	12.8287	14.0114	16.3317	14.6686	13.2194	14.3839	1.1896	0	0
3.74	12.0947	12.8253	12.6483	15.6837	13.3896	13.4441	14.0604	1.1896	0	0
3.75	11.0271	12.7128	11.7434	14.1198	12.1908	11.8310	12.5327	1.1896	0	0
3.76	10.6610	11.9900	11.2956	14.4910	12.4383	12.9516	13.5453	1.1896	0	0
3.77	11.3717	12.1385	12.5506	15.3985	13.7692	13.2525	14.5100	1.1896	0	0
3.78	11.7217	11.8232	13.5154	16.0016	14.7416	13.0485	14.8284	1.1896	0	0
3.79	12.1984	12.9674	11.4242	14.6143	11.2341	12.9402	12.4029	1.1896	0	0
3.80	9.7330	12.0787	10.2922	13.4161	11.5727	12.1292	12.7921	1.1896	0	0
3.81	11.1191	11.8621	11.7566	15.0796	12.9426	13.5718	14.0885	1.1896	0	0
3.82	11.9511	12.8142	12.4953	16.0464	13.4969	14.4820	14.7558	1.1896	0	0
3.83	10.9203	12.7116	11.2112	14.7903	12.3869	13.5799	14.0719	1.1896	0	0
3.84	11.0919	12.9292	12.1725	16.0359	13.8625	14.2623	15.0803	1.1896	0	0
3.85	11.6863	12.6474	12.6920	15.1617	13.2886	12.7013	13.5537	1.1896	0	0
3.86	12.7729	13.0092	13.2585	16.3571	13.7796	14.2240	14.6022	1.1896	0	0
3.87	11.7204	13.8691	12.0044	15.3172	12.6978	13.4749	13.6872	1.1896	0	0
3.88	11.4934	13.0748	12.3386	15.6367	13.4604	13.7152	14.4619	1.1896	0	0
3.89	11.3283	13.6253	11.8894	15.9762	13.4210	14.4432	15.0770	1.1896	0	0
3.90	11.6364	13.7229	12.2227	16.2562	13.8150	14.9947	15.5696	1.1896	0	0
3.91	11.8695	13.5417	12.2768	16.5140	13.2702	15.3459	15.1710	1.1896	0	0
3.92	11.1430	13.8037	11.3919	15.6271	12.6947	14.8478	14.8092	1.1896	0	0
3.93	11.6692	13.3662	12.5535	15.2496	13.2790	12.7586	13.4897	1.1896	0	0
3.94	11.1855	12.5251	12.6015	15.1714	13.6671	12.8501	13.9542	1.1896	0	0
3.95	9.8642	11.7804	11.3417	13.9571	12.6781	11.9167	13.2309	1.1896	0	0
3.96	11.3310	11.7585	12.8157	15.8217	14.2160	13.4939	14.8542	1.1896	0	0
3.97	11.5887	12.8109	10.5827	14.3826	10.1102	13.3838	11.9804	1.1896	0	0
3.98	11.7926	12.9772	12.1584	15.0793	12.6692	12.8581	13.3075	1.1896	0	0
3.99	11.1269	12.3477	12.1110	14.9257	13.0329	12.6966	13.4866	1.1896	0	0
4.00	12.9521	12.9374	13.5279	16.9897	14.3383	15.0627	15.4459	1.1896	0	0
4.01	13.3551	14.0054	12.8411	17.5503	13.8726	16.3795	16.0471	1.1896	0	0
4.02	12.2108	13.8520	12.4493	15.9759	13.1272	14.3508	14.3843	1.1896	0	0
4.03	11.1725	13.4028	11.0896	14.7918	11.9052	13.6516	13.5591	1.1896	0	0
4.04	11.8936	13.0320	12.1219	14.8699	12.2649	12.7710	12.7852	1.1896	0	0
4.05	10.8166	12.9857	11.8324	14.4426	12.7893	12.5880	13.3923	1.1896	0	0
4.06	10.0119	11.7421	11.2503	14.7545	13.0139	13.4184	14.3816	1.1896	0	0
4.07	10.3548	12.3212	10.7108	13.7549	11.5837	12.2785	12.8688	1.1896	0	0
4.08	12.6277	12.7460	12.7308	15.2016	12.6918	12.7625	13.0930	1.1896	0	0
4.09	11.4283	11.9996	12.1118	15.4242	13.1277	13.8860	14.3600	1.1896	0	0
4.10	13.0051	13.9318	12.9501	16.1936	12.9690	13.8929	13.6050	1.1896	0	0
4.11	11.5446	13.5025	11.4218	14.7995	11.8197	13.2011	13.0856	1.1896	0	0
4.12	11.1580	12.3196	11.6855	15.2938	13.0900	14.0151	14.5414	1.1896	0	0
4.13	11.5018	12.9220	12.0649	15.3416	12.7122	13.7574	13.7543	1.1896	0	0
4.14	11.6371	12.7056	12.6652	16.1041	14.1515	14.2632	15.3145	1.1896	0	0
4.15	10.6749	11.9789	11.9055	14.4476	12.8892	12.4488	13.5731	1.1896	0	0
4.16	10.7794	12.6217	11.9926	14.9901	13.1897	13.0033	14.0835	1.1896	0	0
4.17	11.9737	12.5636	12.6047	15.9793	13.7446	14.3203	14.9141	1.1896	0	0
4.18	11.7228	13.1626	12.2143	14.5321	12.0376	12.1509	12.3500	1.1896	0	0
4.19	11.4873	12.7691	11.6583	15.0169	12.1759	13.6075	13.5493	1.1896	0	0
4.20	10.8901	12.8794	11.5335	15.2438	12.9466	14.0837	14.5912	1.1896	0	0
4.21	10.0356	12.7665	11.4734	13.0417	11.6198	9.1855	10.5889	1.1896	0	0
4.22	10.6035	11.5108	11.7205	14.0110	12.5597	11.9364	12.9121	1.1896	0	0
4.23	10.0291	11.2606	11.3584	14.2545	12.7761	12.6587	13.7352	1.1896	0	0
4.24	8.0497	10.5642	11.0066	12.6626	12.2748	9.5512	11.6671	1.1896	0	0
4.25	11.0082	10.8111	10.1246	11.9064	8.7548	9.6997	8.7284	1.1896	0	0
4.26	9.0052	10.3575	9.2410	10.4136	8.5910	8.0425	8.2622	1.1896	0	0
4.27	8.1348	10.2351	8.2669	10.9753	8.7962	9.7471	9.5576	1.1896	0	0
4.28	8.5111	10.7234	7.9612	10.8951	8.1613	10.4678	9.8043	1.1896	0	0
4.29	12.3466	11.7840	12.3116	15.8423	12.7622	14.3015	14.2076	1.1896	0	0
4.30	12.0531	12.6772	12.6136	16.2842	13.7844	14.5746	15.0953	1.1896	0	0
4.31	12.9532	13.7636	13.7853	17.1277	14.6376	14.9500	15.4182	1.1896	0	0
4.32	11.7368	12.5710	12.4797	15.7902	13.7212	14.2074	14.9781	1.1896	0	0
4.33	11.6573	13.0934	13.2759	14.8931	13.5832	11.3778	12.9658	1.1896	0	0
4.34	11.2374	12.2818	12.2317	14.5976	12.7963	12.1991	13.1122	1.1896	0	0
4.35	11.5852	11.6828	13.0679	15.4971	13.9077	12.9581	14.2269	1.1896	0	0
4.36	9.7225	12.5878	10.2917	13.0033	10.7535	11.7243	11.3855	1.1896	0	0
4.37	11.8089	12.4119	12.5516	15.5029	13.4066	13.5263	14.1311	1.1896	0	0
4.38	11.6060	12.7835	11.8660	15.3698	12.8752	13.8370	14.1428	1.1896	0	0
4.39	11.0086	13.3734	11.2397	14.6614	11.9332	13.1566	13.1492	1.1896	0	0
4.40	12.3449	12.8554	12.5014	15.8103	13.2353	13.9324	14.1435	1.1896	0	0
4.41	11.7256	12.9073	12.0609	15.1825	12.8844	13.4337	13.8316	1.1896	0	0
4.42	11.5975	12.7183	12.2556	15.1487	13.0537	12.9507	13.7456	1.1896	0	0
4.43	11.6284	13.0357	11.3209	14.5628	11.5595	13.0260	12.7189	1.1896	0	0
4.44	10.8605	12.7679	11.3017	14.2943	11.9777	12.5551	12.9861	1.1896	0	0
4.45	11.1464	12.2727	11.6049	15.0062	12.5533	13.5285	13.8674	1.1896	0	0
4.46	11.0349	12.1104	11.9426	15.6275	13.5404	14.4120	15.1057	1.1896	0	0
4.47	10.3908	12.2818	11.6437	14.7132	12.9711	12.6370	13.8682	1.1896	0	0
4.48	12.9850	13.4328	12.8691	16.6200	13.5130	14.8484	15.0009	1.1896	0	0
4.49	11.2475	13.1518	12.2010	16.2992	14.0102	15.0691	15.8491	1.1896	0	0
4.50	11.7894	13.0340	12.7297	15.6957	13.4977	13.5464	14.4280	1.1896	0	0
4.51	10.6809	12.8142	11.6324	15.0628	13.2495	13.7074	14.5582	1.1896	0	0
4.52	12.4005	12.9746	11.4975	15.1298	11.4757	13.5700	12.7095	1.1896	0	0
4.53	9.1233	12.0123	8.8362	11.7560	9.1628	10.7541	10.3071	1.1896	0	0
4.54	8.9352	11.6438	8.9269	10.9448	8.8044	9.4012	9.1650	1.1896	0	0
4.55	11.5540	11.7383	12.1699	15.4203	12.9642	13.2098	13.6759	1.1896	0	0
4.56	10.7495	12.2522	11.7203	15.3671	13.3052	13.9278	14.7536	1.1896	0	0
4.57	11.2063	13.0529	11.1699	14.4921	11.6138	12.8697	12.7520	1.1896	0	0
4.58	12.2149	13.0662	11.3801	14.8617	11.1300	13.5656	12.8621	1.1896	0	0
4.59	10.5158	13.3802	11.5046	14.6252	12.9087	12.9660	13.8979	1.1896	0	0
4.60	11.4841	12.9614	12.4256	15.1821	13.3369	12.9663	14.0231	1.1896	0	0
4.61	11.4558	13.0729	12.3453	15.7401	13.6754	14.1656	14.9077	1.1896	0	0
4.62	12.1693	12.3741	12.8189	14.7171	12.5206	11.9282	12.1751	1.1896	0	0
4.63	13.5986	12.6919	13.0710	16.7256	13.2543	15.3060	14.8814	1.1896	0	0
4.64	11.4190	12.4080	12.4179	14.9577	13.2026	12.4996	13.3970	1.1896	0	0
4.65	11.3287	12.4424	10.7815	14.2516	10.4805	12.7547	11.7614	1.1896	0	0
4.66	10.6184	12.1037	11.2833	14.2688	12.4300	12.6784	13.3778	1.1896	0	0
4.67	11.6471	12.7575	12.0751	15.8084	13.3395	14.2252	14.5621	1.1896	0	0
4.68	10.3836	12.0532	11.0811	13.7674	11.8564	11.8800	12.5576	1.1896	0	0
4.69	11.2560	12.5766	12.2049	14.9731	13.0244	12.6279	13.5357	1.1896	0	0
4.70	9.1552	11.5734	9.1684	11.9946	9.6622	11.2430	11.0842	1.1896	0	0
4.71	10.4184	11.9477	10.9977	14.8570	12.3351	13.7759	14.0703	1.1896	0	0
4.72	11.2997	12.6068	11.5699	15.1364	12.5464	13.9795	14.0837	1.1896	0	0
4.73	11.6874	12.2731	12.5914	15.9453	13.6485	14.1083	14.7046	1.1896	0	0
4.74	9.7298	12.1744	11.2427	14.0209	12.6994	12.2498	13.6111	1.1896	0	0
4.75	9.4968	11.3399	9.4315	11.5296	9.5423	10.1201	9.9774	1.1896	0	0
4.76	10.8159	11.0750	10.5451	12.7208	10.0391	10.6948	10.1972	1.1896	0	0
4.77	11.2571	12.7107	9.8837	13.1467	9.5356	11.9199	11.0876	1.1896	0	0
4.78	11.9630	12.3369	11.5202	15.0541	11.7398	13.8222	13.2513	1.1896	0	0
4.79	10.7623	12.8217	10.8548	13.9594	11.5431	12.3510	12.6184	1.1896	0	0
4.80	10.6651	13.1277	11.4169	14.6138	12.5453	13.0291	13.6584	1.1896	0	0
4.81	10.7959	11.9422	10.2042	13.8932	10.8058	13.1977	12.5989	1.1896	0	0
4.82	11.2427	13.3229	11.0416	15.3519	11.9390	14.5367	14.1384	1.1896	0	0
4.83	10.4428	12.4498	12.1740	13.2693	12.4345	9.5832	11.3110	1.1896	0	0
4.84	10.6892	12.1371	11.2664	14.9734	12.5355	14.0438	14.2953	1.1896	0	0
4.85	10.7929	13.0128	10.8367	14.7431	11.9539	13.7619	13.8607	1.1896	0	0
4.86	12.0277	13.1840	12.5825	16.4802	13.7140	14.8402	15.0542	1.1896	0	0
4.87	11.7883	13.0633	12.5757	15.7296	13.5611	14.0599	14.5004	1.1896	0	0
4.88	12.5589	13.3112	12.7200	16.5121	13.5906	15.1236	15.2013	1.1896	0	0
4.89	12.6700	13.5441	11.7084	15.0329	11.4841	13.5546	13.0332	1.1896	0	0
4.90	11.8246	13.2265	11.8565	15.1270	12.2566	13.7833	13.6331	1.1896	0	0
4.91	11.4012	13.0838	11.6505	15.2508	12.5806	13.8277	13.9547	1.1896	0	0
4.92	11.5409	13.1828	12.9422	15.7593	14.2375	12.7685	14.2327	1.1896	0	0
4.93	11.3515	12.6904	12.2517	15.4108	13.2927	13.5369	14.1752	1.1896	0	0
4.94	10.7055	12.6921	11.8720	14.6781	12.8654	12.5758	13.5519	1.1896	0	0
4.95	11.1518	12.7979	13.3661	16.3670	15.1484	13.8387	15.6452	1.1896	0	0
4.96	10.4223	12.5402	11.0913	14.6147	12.1977	13.4936	13.8395	1.1896	0	0
4.97	11.9663	12.5005	13.0348	15.1541	13.6372	12.2658	13.6070	1.1896	0	0
4.98	11.9923	12.9744	12.3350	14.7596	12.4391	12.3771	12.7785	1.1896	0	0
4.99	10.7923	12.2143	11.8753	14.2339	12.7633	12.0614	13.1929	1.1896	0	0
5.00	11.0602	12.6395	12.0087	14.7447	12.9428	12.7133	13.5529	1.1896	0	0
